File: preprocessed_concrete_mixing_entries.csv
binder(kg/m3),pozzolan(kg/m3),fine_aggregate(kg/m3),water(kg/m3),foaming_agent(kg/m3),measured_density(kg/m3),period_of_testing(Days),compressive_strength(MPa)
420.0,0.0,0.0,168.0,39.4,629.0,28,1.77
411.0,0.0,0.0,186.0,38.5,631.0,28,2.07
149.0,302.0,0.0,190.0,35.8,678.0,28,1.09
311.0,0.0,0.0,141.0,44.3,497.0,28,0.71
57.0,268.0,885.0,163.0,20.0,1396.0,28,0.25
57.0,787.0,0.0,484.0,8.2,1338.0,28,0.23
149.0,676.0,0.0,469.0,10.2,1304.0,28,1.1
300.0,0.0,905.0,150.0,40.0,1256.0,28,5.39
450.0,0.0,784.0,150.0,40.0,1324.0,28,12.74
300.0,0.0,650.0,250.0,40.0,1011.0,28,2.45
450.0,0.0,529.0,250.0,40.0,1069.0,28,10.78
300.0,0.0,1288.0,200.0,20.0,1648.0,28,4.9
450.0,0.0,1167.0,200.0,20.0,1707.0,28,18.5
300.0,0.0,268.0,200.0,60.0,627.0,28,1.96
450.0,0.0,147.0,200.0,60.0,687.0,28,3.43
375.0,0.0,1355.0,150.0,20.0,1805.0,28,17.65
375.0,0.0,1100.0,250.0,20.0,1550.0,28,13.5
375.0,0.0,335.0,150.0,60.0,785.0,28,4.9
375.0,0.0,800.0,250.0,60.0,529.0,28,2.94
375.0,0.0,717.0,200.0,40.0,1167.0,28,8.33
375.0,0.0,717.0,200.0,40.0,1161.0,28,8.82
375.0,0.0,717.0,200.0,40.0,1171.0,28,8.33
153.2,0.0,229.7,68.9,0.5,600.0,7,0.4
130.2,22.98,229.7,68.9,0.5,600.0,7,0.2
107.2,45.96,229.7,68.9,0.51,600.0,7,0.1
153.2,0.0,195.2,68.9,0.48,600.0,7,0.3
153.2,0.0,160.8,68.9,0.46,600.0,7,0.5
153.2,0.0,229.7,68.9,0.48,600.0,7,0.3
153.2,0.0,229.7,68.9,0.46,600.0,7,0.4
251.5,0.0,377.3,113.2,0.37,1000.0,7,2.6
251.5,0.0,377.3,113.2,0.35,1000.0,7,2.2
251.5,0.0,377.3,113.2,0.32,1000.0,7,1.6
251.5,0.0,320.7,113.2,0.33,1000.0,7,1.9
251.5,0.0,264.1,113.2,0.31,1000.0,7,2.0
213.8,37.73,377.3,113.2,0.37,1000.0,7,1.8
176.1,75.45,377.3,113.2,0.37,1000.0,7,1.6
424.9,0.0,637.3,191.2,0.29,1400.0,7,6.3
424.9,0.0,637.3,191.2,0.28,1400.0,7,8.2
424.9,0.0,637.3,191.2,0.29,1400.0,7,7.9
424.9,0.0,541.7,191.2,0.25,1400.0,7,7.5
424.9,0.0,446.1,191.2,0.17,1400.0,7,6.9
361.2,63.74,637.3,191.2,0.3,1400.0,7,5.4
297.4,127.47,637.3,191.2,0.29,1400.0,7,6.7
153.2,0.0,229.7,68.9,0.5,600.0,28,0.5
130.2,22.98,229.7,68.9,0.5,600.0,28,0.5
107.2,45.96,229.7,68.9,0.51,600.0,28,0.3
153.2,0.0,195.2,68.9,0.48,600.0,28,0.4
153.2,0.0,160.8,68.9,0.46,600.0,28,0.5
153.2,0.0,229.7,68.9,0.48,600.0,28,0.5
153.2,0.0,229.7,68.9,0.46,600.0,28,0.6
251.5,0.0,377.3,113.2,0.37,1000.0,28,2.9
251.5,0.0,377.3,113.2,0.35,1000.0,28,3.2
251.5,0.0,377.3,113.2,0.32,1000.0,28,2.8
251.5,0.0,320.7,113.2,0.33,1000.0,28,2.8
251.5,0.0,264.1,113.2,0.31,1000.0,28,2.9
213.8,37.73,377.3,113.2,0.37,1000.0,28,2.2
176.1,75.45,377.3,113.2,0.37,1000.0,28,2.1
424.9,0.0,637.3,191.2,0.29,1400.0,28,8.1
424.9,0.0,637.3,191.2,0.28,1400.0,28,11.4
424.9,0.0,637.3,191.2,0.29,1400.0,28,11.8
424.9,0.0,541.7,191.2,0.25,1400.0,28,9.5
424.9,0.0,446.1,191.2,0.17,1400.0,28,10.3
361.2,63.74,637.3,191.2,0.3,1400.0,28,8.3
297.4,127.47,637.3,191.2,0.29,1400.0,28,8.3
153.2,0.0,229.7,68.9,0.5,600.0,60,0.5
130.2,22.98,229.7,68.9,0.5,600.0,60,0.7
107.2,45.96,229.7,68.9,0.51,600.0,60,0.7
153.2,0.0,195.2,68.9,0.48,600.0,60,0.7
153.2,0.0,160.8,68.9,0.46,600.0,60,0.7
153.2,0.0,229.7,68.9,0.48,600.0,60,0.7
153.2,0.0,229.7,68.9,0.46,600.0,60,0.8
251.5,0.0,377.3,113.2,0.37,1000.0,60,3.1
251.5,0.0,377.3,113.2,0.35,1000.0,60,3.3
251.5,0.0,377.3,113.2,0.32,1000.0,60,3.8
251.5,0.0,320.7,113.2,0.33,1000.0,60,3.1
251.5,0.0,264.1,113.2,0.31,1000.0,60,3.1
213.8,37.73,377.3,113.2,0.37,1000.0,60,2.4
176.1,75.45,377.3,113.2,0.37,1000.0,60,2.5
424.9,0.0,637.3,191.2,0.29,1400.0,60,10.1
424.9,0.0,637.3,191.2,0.28,1400.0,60,11.8
424.9,0.0,637.3,191.2,0.29,1400.0,60,12.1
424.9,0.0,541.7,191.2,0.25,1400.0,60,11.2
424.9,0.0,446.1,191.2,0.17,1400.0,60,10.9
361.2,63.74,637.3,191.2,0.3,1400.0,60,8.3
297.4,127.47,637.3,191.2,0.29,1400.0,60,8.3
153.2,0.0,229.7,68.9,0.5,600.0,180,0.6
130.2,22.98,229.7,68.9,0.5,600.0,180,0.6
107.2,45.96,229.7,68.9,0.51,600.0,180,0.6
153.2,0.0,195.2,68.9,0.48,600.0,180,0.6
153.2,0.0,160.8,68.9,0.46,600.0,180,0.6
153.2,0.0,229.7,68.9,0.48,600.0,180,0.6
153.2,0.0,229.7,68.9,0.46,600.0,180,0.7
251.5,0.0,377.3,113.2,0.37,1000.0,180,4.5
251.5,0.0,377.3,113.2,0.35,1000.0,180,3.8
251.5,0.0,377.3,113.2,0.32,1000.0,180,4.6
251.5,0.0,320.7,113.2,0.33,1000.0,180,4.0
251.5,0.0,264.1,113.2,0.31,1000.0,180,3.6
213.8,37.73,377.3,113.2,0.37,1000.0,180,3.0
176.1,75.45,377.3,113.2,0.37,1000.0,180,2.7
424.9,0.0,637.3,191.2,0.29,1400.0,180,10.1
424.9,0.0,637.3,191.2,0.28,1400.0,180,12.2
424.9,0.0,637.3,191.2,0.29,1400.0,180,13.2
424.9,0.0,541.7,191.2,0.25,1400.0,180,11.1
424.9,0.0,446.1,191.2,0.17,1400.0,180,11.2
361.2,63.74,637.3,191.2,0.3,1400.0,180,8.6
297.4,127.47,637.3,191.2,0.29,1400.0,180,9.7
600.0,0.0,500.0,315.0,26.5,1700.0,3,0.94398
600.0,0.0,500.0,315.0,26.5,1700.0,3,1.4998
600.0,0.0,500.0,315.0,26.5,1700.0,3,1.28295
600.0,0.0,500.0,315.0,26.5,1700.0,3,1.19557
600.0,0.0,500.0,315.0,26.5,1700.0,3,1.02795
600.0,0.0,500.0,315.0,26.5,1700.0,3,1.16977
600.0,0.0,500.0,315.0,26.5,1700.0,3,1.46021
600.0,0.0,500.0,315.0,26.5,1700.0,3,1.9
600.0,0.0,500.0,315.0,26.5,1700.0,3,2.0
600.0,0.0,500.0,315.0,26.5,1700.0,3,2.2
600.0,0.0,500.0,315.0,26.5,1700.0,7,1.45559
600.0,0.0,500.0,315.0,26.5,1700.0,7,1.99352
600.0,0.0,500.0,315.0,26.5,1700.0,7,1.75982
600.0,0.0,500.0,315.0,26.5,1700.0,7,1.60402
600.0,0.0,500.0,315.0,26.5,1700.0,7,2.2
600.0,0.0,500.0,315.0,26.5,1700.0,7,1.9
600.0,0.0,500.0,315.0,26.5,1700.0,7,2.1
600.0,0.0,500.0,315.0,26.5,1700.0,7,2.5
600.0,0.0,500.0,315.0,26.5,1700.0,7,2.8
600.0,0.0,500.0,315.0,26.5,1700.0,7,3.0
600.0,0.0,500.0,315.0,26.5,1700.0,14,2.00194
600.0,0.0,500.0,315.0,26.5,1700.0,14,2.65251
600.0,0.0,500.0,315.0,26.5,1700.0,14,2.40091
600.0,0.0,500.0,315.0,26.5,1700.0,14,2.2188
600.0,0.0,500.0,315.0,26.5,1700.0,14,2.2
600.0,0.0,500.0,315.0,26.5,1700.0,14,2.7
600.0,0.0,500.0,315.0,26.5,1700.0,14,2.3
600.0,0.0,500.0,315.0,26.5,1700.0,14,2.8
600.0,0.0,500.0,315.0,26.5,1700.0,14,3.1
600.0,0.0,500.0,315.0,26.5,1700.0,14,3.1
600.0,0.0,500.0,315.0,26.5,1700.0,28,2.49671
600.0,0.0,500.0,315.0,26.5,1700.0,28,3.19886
600.0,0.0,500.0,315.0,26.5,1700.0,28,2.94727
600.0,0.0,500.0,315.0,26.5,1700.0,28,2.64409
600.0,0.0,500.0,315.0,26.5,1700.0,28,2.8
600.0,0.0,500.0,315.0,26.5,1700.0,28,2.9
600.0,0.0,500.0,315.0,26.5,1700.0,28,3.3
600.0,0.0,500.0,315.0,26.5,1700.0,28,3.1
600.0,0.0,500.0,315.0,26.5,1700.0,28,3.5
600.0,0.0,500.0,315.0,26.5,1700.0,28,3.8
450.0,0.0,515.0,295.0,30.0,1195.0,7,1.5
450.0,0.0,450.0,340.0,26.0,1230.0,7,4.7
300.0,0.0,685.0,275.0,29.0,1175.0,7,1.0
300.0,0.0,600.0,355.0,34.0,1290.0,7,2.9
225.0,0.0,770.0,265.0,33.0,1250.0,7,0.6
225.0,25.0,770.0,265.0,35.0,1305.0,7,0.3
225.0,112.5,770.0,265.0,35.0,1285.0,7,0.2
225.0,0.0,675.0,385.0,27.0,1295.0,7,1.8
225.0,25.0,675.0,390.0,40.0,1285.0,7,1.4
225.0,112.5,675.0,400.0,43.0,1300.0,7,0.8
195.0,0.0,730.0,415.0,26.0,1255.0,7,0.4
225.0,0.0,750.0,330.0,27.0,1200.0,7,1.0
450.0,0.0,515.0,295.0,30.0,1195.0,14,1.9
450.0,0.0,450.0,340.0,26.0,1230.0,14,5.1
300.0,0.0,685.0,275.0,29.0,1175.0,14,1.1
300.0,0.0,600.0,355.0,34.0,1290.0,14,3.1
225.0,0.0,770.0,265.0,33.0,1250.0,14,0.7
225.0,25.0,770.0,265.0,35.0,1305.0,14,0.7
225.0,112.5,770.0,265.0,35.0,1285.0,14,0.3
225.0,0.0,675.0,385.0,27.0,1295.0,14,2.5
225.0,25.0,675.0,390.0,40.0,1285.0,14,1.7
225.0,112.5,675.0,400.0,43.0,1300.0,14,1.5
195.0,0.0,730.0,415.0,26.0,1255.0,14,0.4
225.0,0.0,750.0,330.0,27.0,1200.0,14,1.4
450.0,0.0,515.0,295.0,30.0,1195.0,28,3.1
450.0,0.0,450.0,340.0,26.0,1230.0,28,6.2
300.0,0.0,685.0,275.0,29.0,1175.0,28,2.0
300.0,0.0,600.0,355.0,34.0,1290.0,28,5.2
225.0,0.0,770.0,265.0,33.0,1250.0,28,1.0
225.0,25.0,770.0,265.0,35.0,1305.0,28,1.0
225.0,112.5,770.0,265.0,35.0,1285.0,28,0.8
225.0,0.0,675.0,385.0,27.0,1295.0,28,4.8
225.0,25.0,675.0,390.0,40.0,1285.0,28,2.1
225.0,112.5,675.0,400.0,43.0,1300.0,28,2.4
195.0,0.0,730.0,415.0,26.0,1255.0,28,0.4
225.0,0.0,750.0,330.0,27.0,1200.0,28,2.0
280.0,0.0,180.0,140.0,12.8,730.0,7,1.99
280.0,0.9,180.0,140.0,12.8,884.0,7,2.42
240.0,0.9,220.0,140.0,16.8,806.0,7,2.97
200.0,0.9,260.0,140.0,18.0,864.0,7,1.99
280.0,0.0,180.0,140.0,12.8,730.0,28,3.09
280.0,0.9,180.0,140.0,12.8,884.0,28,4.6
240.0,0.9,220.0,140.0,16.8,806.0,28,3.52
200.0,0.9,260.0,140.0,18.0,864.0,28,4.5
280.0,0.9,180.0,160.0,15.1,845.0,7,2.98
200.0,0.9,260.0,160.0,11.9,790.0,7,1.98
160.0,0.9,300.0,160.0,14.8,840.0,7,2.48
280.0,0.9,180.0,160.0,15.1,845.0,28,3.6
200.0,0.9,260.0,160.0,11.9,790.0,28,3.48
160.0,0.9,300.0,160.0,14.8,840.0,28,3.97
420.0,0.0,0.0,168.0,39.4,629.0,28,1.77
411.0,0.0,0.0,186.0,38.5,631.0,28,2.07
149.0,0.0,302.0,190.0,35.8,678.0,28,1.09
311.0,0.0,0.0,141.0,44.3,497.0,28,0.73
325.0,0.0,885.0,163.0,20.0,1396.0,28,0.25
844.0,0.0,0.0,484.0,8.2,1338.0,28,0.23
825.0,0.0,0.0,469.0,10.2,1304.0,28,1.12
420.0,0.0,0.0,168.0,39.4,629.0,28,1.76
411.0,0.0,0.0,186.0,38.5,631.0,28,1.98
451.0,0.0,0.0,190.0,35.8,678.0,28,1.07
311.0,0.0,0.0,141.0,44.3,497.0,28,0.8
325.0,0.0,885.0,163.0,20.0,1396.0,28,0.11
844.0,0.0,0.0,484.0,8.2,1338.0,28,0.22
825.0,0.0,0.0,469.0,10.2,1304.0,28,1.23
420.0,0.0,0.0,168.0,39.4,629.0,28,1.54
411.0,0.0,0.0,186.0,38.5,631.0,28,2.17
451.0,0.0,0.0,190.0,35.8,678.0,28,1.43
311.0,0.0,0.0,141.0,44.3,497.0,28,0.85
325.0,0.0,885.0,163.0,20.0,1396.0,28,0.13
844.0,0.0,0.0,484.0,8.2,1338.0,28,0.2
825.0,0.0,0.0,469.0,10.2,1304.0,28,1.34
420.0,0.0,0.0,168.0,39.4,629.0,28,1.91
411.0,0.0,0.0,186.0,38.5,631.0,28,2.05
451.0,0.0,0.0,190.0,35.8,678.0,28,1.5
311.0,0.0,0.0,141.0,44.3,497.0,28,0.85
325.0,0.0,885.0,163.0,20.0,1396.0,28,0.0
844.0,0.0,0.0,484.0,8.2,1338.0,28,0.08
825.0,0.0,0.0,469.0,10.2,1304.0,28,1.34
420.0,0.0,0.0,168.0,39.4,629.0,28,1.55
411.0,0.0,0.0,186.0,38.5,631.0,28,2.1
451.0,0.0,0.0,190.0,35.8,678.0,28,1.43
311.0,0.0,0.0,141.0,44.3,497.0,28,0.84
325.0,0.0,885.0,163.0,20.0,1396.0,28,0.13
844.0,0.0,0.0,484.0,8.2,1338.0,28,0.0
825.0,0.0,0.0,469.0,10.2,1304.0,28,1.43
420.0,0.0,0.0,168.0,39.4,629.0,28,1.9
411.0,0.0,0.0,186.0,38.5,631.0,28,1.92
451.0,0.0,0.0,190.0,35.8,678.0,28,1.44
311.0,0.0,0.0,141.0,44.3,497.0,28,1.09
325.0,0.0,885.0,163.0,20.0,1396.0,28,0.0
844.0,0.0,0.0,484.0,8.2,1338.0,28,0.0
825.0,0.0,0.0,469.0,10.2,1304.0,28,1.6
420.0,0.0,0.0,168.0,39.4,629.0,28,1.82
411.0,0.0,0.0,186.0,38.5,631.0,28,1.96
451.0,0.0,0.0,190.0,35.8,678.0,28,1.36
311.0,0.0,0.0,141.0,44.3,497.0,28,1.22
325.0,0.0,885.0,163.0,20.0,1396.0,28,0.12
844.0,0.0,0.0,484.0,8.2,1338.0,28,0.0
825.0,0.0,0.0,469.0,10.2,1304.0,28,1.5
614.6,0.0,614.6,276.57,29.5,1505.8,7,7.92
608.6,0.0,608.6,273.87,30.2,1490.96,7,8.4
606.13,0.0,606.13,272.76,30.5,1485.04,7,8.24
587.8,0.0,587.8,264.5,32.6,1440.0,7,8.0
578.7,0.0,578.7,260.42,33.6,1417.78,7,8.03
581.7,0.0,581.7,261.77,33.3,1425.19,7,8.28
710.14,0.0,710.14,319.56,18.5,1739.85,7,17.32
713.0,0.0,713.0,320.85,18.2,1746.96,7,18.42
714.3,0.0,714.3,321.44,18.1,1749.93,7,19.22
703.6,0.0,703.6,316.62,19.3,1723.85,7,17.25
699.7,0.0,699.7,314.87,19.7,1714.37,7,17.22
702.3,0.0,702.3,316.04,19.4,1720.59,7,17.48
777.4,0.0,777.4,349.83,10.8,1904.59,7,28.84
775.0,0.0,775.0,348.75,11.1,1898.67,7,23.64
789.3,0.0,789.3,355.19,9.5,1933.63,7,23.5
772.5,0.0,772.5,347.63,11.4,1892.74,7,13.66
753.2,0.0,753.2,338.94,13.6,1845.33,7,13.9
760.7,0.0,760.7,342.32,12.7,1863.7,7,14.73
784.0,0.0,392.0,352.8,24.7,1528.89,7,11.03
782.0,0.0,391.0,351.9,24.9,1525.04,7,11.51
779.0,0.0,389.5,350.55,25.2,1519.11,7,12.08
757.0,0.0,378.5,340.65,27.3,1476.15,7,12.26
760.65,0.0,380.33,342.29,27.0,1483.26,7,12.32
748.8,0.0,374.4,336.96,28.1,1460.15,7,12.13
900.0,0.0,450.0,405.0,13.6,1748.0,7,14.46
902.0,0.0,451.0,405.9,13.4,1759.11,7,18.32
908.3,0.0,454.15,408.74,12.8,1771.26,7,16.99
883.9,0.0,441.95,397.76,15.2,1723.56,7,26.0
884.6,0.0,442.3,398.07,15.1,1725.04,7,26.02
892.0,0.0,446.0,401.4,14.4,1739.26,7,26.23
987.7,0.0,493.85,444.47,5.2,1925.93,7,27.16
992.8,0.0,496.4,446.76,4.7,1936.0,7,26.98
979.8,0.0,489.9,440.91,6.0,1910.52,7,27.26
982.2,0.0,491.1,441.99,5.7,1915.26,7,24.94
958.5,0.0,479.25,431.33,8.0,1869.04,7,25.54
985.2,0.0,492.6,443.34,5.4,1921.19,7,26.09
447.6,0.0,895.2,201.42,31.9,1544.3,7,8.81
450.37,0.0,900.74,202.6665,31.5,1553.78,7,8.97
449.9,0.0,899.8,202.455,31.5,1552.0,7,7.84
439.2,0.0,878.4,197.64,33.2,1515.26,7,9.0
441.7,0.0,883.4,198.765,32.8,1523.85,7,9.5
440.32,0.0,880.64,198.144,33.0,1519.11,7,8.27
488.9,0.0,977.8,220.005,25.6,1686.52,7,10.25
485.0,0.0,970.0,218.25,26.2,1673.48,7,9.86
485.8,0.0,971.6,218.61,26.1,1675.85,7,10.56
476.4,0.0,952.8,214.38,27.5,1643.56,7,8.96
480.4,0.0,960.8,216.18,26.9,1657.48,7,9.41
479.0,0.0,958.0,215.55,27.1,1652.74,7,8.6
546.6,0.0,1093.2,245.97,16.8,1885.63,7,23.45
545.9,0.0,1091.8,245.655,16.9,1883.26,7,21.0
549.0,0.0,1098.0,247.05,16.5,1893.93,7,23.92
540.5,0.0,1081.0,243.225,17.7,1864.89,7,21.5
548.3,0.0,1096.6,246.735,16.6,1891.56,7,22.51
539.5,0.0,1079.0,242.775,17.9,1861.33,7,19.96
837.3,0.0,837.3,334.92,8.1,2009.48,7,33.96
833.8,0.0,833.8,333.52,8.5,2001.19,7,34.15
831.9,0.0,831.9,332.76,8.7,1996.44,7,33.7
826.0,0.0,826.0,330.4,9.4,1982.22,7,31.1
821.7,0.0,821.7,328.68,9.8,1972.15,7,32.16
818.0,0.0,818.0,327.2,10.3,1963.26,7,31.95
728.0,0.0,728.0,291.2,20.1,1747.26,7,21.25
724.7,0.0,724.7,289.88,20.5,1739.26,7,21.37
724.3,0.0,724.3,289.72,20.5,1738.37,7,19.68
726.0,0.0,726.0,290.4,20.4,1742.22,7,20.78
721.23,0.0,721.23,288.492,20.9,1730.96,7,22.01
724.0,0.0,724.0,289.6,20.6,1737.48,7,21.49
596.54,0.0,596.54,238.616,34.6,1431.7,7,8.64
596.9,0.0,596.9,238.76,34.5,1432.59,7,8.38
598.8,0.0,598.8,239.52,34.3,1437.04,7,8.51
586.2,0.0,586.2,234.48,35.7,1406.81,7,6.44
590.9,0.0,590.9,236.36,35.2,1418.07,7,7.25
588.15,0.0,588.15,235.26,35.5,1411.56,7,6.53
816.13,0.0,816.13,285.645,14.4,1919.7,7,34.39
829.5,0.0,829.5,290.325,13.0,1951.11,7,35.24
820.0,0.0,820.0,287.0,14.0,1928.89,7,35.56
810.2,0.0,810.2,283.57,15.0,1905.78,7,30.25
817.8,0.0,817.8,286.23,14.2,1923.56,7,29.48
819.15,0.0,819.15,286.7025,14.1,1926.81,7,31.07
747.6,0.0,747.6,261.66,21.6,1758.52,7,27.26
755.5,0.0,755.5,264.425,20.7,1777.19,7,28.94
757.8,0.0,757.8,265.23,20.5,1782.52,7,27.38
748.2,0.0,748.2,261.87,21.5,1760.0,7,24.55
742.8,0.0,742.8,259.98,22.1,1747.26,7,24.21
742.3,0.0,742.3,259.805,22.1,1746.07,7,23.7
678.6,0.0,678.6,237.51,28.8,1596.15,7,14.65
683.5,0.0,683.5,239.225,28.3,1607.7,7,16.94
688.8,0.0,688.8,241.08,27.7,1620.15,7,15.63
673.4,0.0,673.4,235.69,29.4,1584.0,7,15.19
675.0,0.0,675.0,236.25,29.2,1587.85,7,15.75
675.6,0.0,675.6,236.46,29.1,1589.04,7,16.82
861.4,0.0,861.4,258.42,13.9,1984.0,7,43.17
858.8,0.0,858.8,257.64,14.1,1978.07,7,42.11
857.26,0.0,857.26,257.178,14.3,1974.52,7,43.5
851.1,0.0,851.1,255.33,14.9,1960.3,7,40.4
853.4,0.0,853.4,256.02,14.7,1965.63,7,41.21
851.9,0.0,851.9,255.57,14.8,1962.07,7,41.13
763.9,0.0,763.9,229.17,23.6,1759.41,7,32.57
785.7,0.0,785.7,235.71,21.4,1809.78,7,33.21
773.6,0.0,773.6,232.08,22.6,1781.93,7,33.04
770.6,0.0,770.6,231.18,22.9,1774.81,7,29.12
767.2,0.0,767.2,230.16,23.3,1767.11,7,29.53
775.4,0.0,775.4,232.62,22.4,1786.07,7,28.57
692.6,0.0,692.6,207.78,30.7,1595.26,7,19.27
698.3,0.0,698.3,209.49,30.2,1608.3,7,19.84
705.2,0.0,705.2,211.56,29.5,1624.3,7,20.12
689.3,0.0,689.3,206.79,31.1,1587.56,7,18.53
690.5,0.0,690.5,207.15,30.9,1590.52,7,18.42
684.9,0.0,684.9,205.47,31.5,1577.48,7,17.47
850.0,0.0,850.0,297.5,10.7,2000.59,7,38.34
852.0,0.0,852.0,298.2,10.4,2005.93,7,37.84
852.24,0.0,852.24,298.284,10.4,2006.52,7,36.15
844.0,0.0,844.0,295.4,11.3,1986.96,7,36.41
841.4,0.0,841.4,294.49,11.6,1981.04,7,35.4
836.6,0.0,836.6,292.81,12.1,1969.78,7,36.04
770.6,0.0,770.6,269.71,19.0,1814.22,7,24.7
759.5,0.0,759.5,265.825,20.2,1788.15,7,27.3
776.0,0.0,776.0,271.6,18.4,1828.15,7,27.74
758.5,0.0,758.5,265.475,20.3,1785.78,7,22.23
767.2,0.0,767.2,268.52,19.4,1806.22,7,23.47
758.2,0.0,758.2,265.37,20.3,1785.19,7,24.26
702.9,0.0,702.9,246.015,26.1,1654.81,7,18.29
701.0,0.0,701.0,245.35,26.3,1650.37,7,18.58
704.25,0.0,704.25,246.487,26.0,1658.07,7,19.78
693.7,0.0,693.7,242.795,27.1,1633.19,7,16.98
691.16,0.0,691.16,241.906,27.4,1627.26,7,16.82
693.0,0.0,693.0,242.55,27.2,1631.7,7,16.91
829.1,0.0,829.1,290.185,12.9,1952.0,7,29.81
831.1,0.0,831.1,290.885,12.6,1956.74,7,32.37
827.3,0.0,827.3,289.555,13.0,1947.85,7,31.86
818.5,0.0,818.5,286.475,14.0,1927.11,7,29.13
817.3,0.0,817.3,286.055,14.1,1924.15,7,28.84
826.3,0.0,826.3,289.205,13.1,1945.48,7,29.56
778.8,0.0,778.8,272.58,18.1,1833.48,7,29.11
753.3,0.0,753.3,263.655,20.8,1773.63,7,29.5
752.3,0.0,752.3,263.305,20.9,1771.26,7,28.62
765.7,0.0,765.7,267.995,19.5,1802.67,7,26.0
748.3,0.0,748.3,261.905,21.3,1761.78,7,26.01
750.9,0.0,750.9,262.815,21.1,1768.0,7,26.9
677.6,0.0,677.6,237.16,28.8,1595.26,7,21.17
678.0,0.0,678.0,237.3,28.7,1596.44,7,21.68
666.7,0.0,666.7,233.345,29.9,1569.48,7,20.78
666.0,0.0,666.0,233.1,30.0,1568.3,7,19.23
661.0,0.0,661.0,231.35,30.5,1556.15,7,20.76
660.3,0.0,660.3,231.105,30.6,1554.67,7,19.86
630.4,0.0,630.4,252.16,30.5,1516.34,7,2.55
737.2,0.0,737.2,294.88,18.8,1773.27,7,4.06
799.0,0.0,799.0,319.6,11.9,1921.82,7,4.85
624.9,0.0,624.9,249.96,31.1,1503.15,7,2.83
732.3,0.0,732.3,292.92,19.3,1761.53,7,3.79
793.8,0.0,793.8,317.52,12.5,1909.38,7,4.53
614.6,0.0,614.6,276.57,29.5,1505.8,28,11.76
608.6,0.0,608.6,273.87,30.2,1490.96,28,11.88
606.13,0.0,606.13,272.76,30.5,1485.04,28,11.92
587.8,0.0,587.8,264.5,32.6,1440.0,28,12.3
578.7,0.0,578.7,260.42,33.6,1417.78,28,11.68
581.7,0.0,581.7,261.77,33.3,1425.19,28,13.45
710.14,0.0,710.14,319.56,18.5,1739.85,28,24.63
713.0,0.0,713.0,320.85,18.2,1746.96,28,24.53
714.3,0.0,714.3,321.44,18.1,1749.93,28,24.49
703.6,0.0,703.6,316.62,19.3,1723.85,28,24.87
699.7,0.0,699.7,314.87,19.7,1714.37,28,24.39
702.3,0.0,702.3,316.04,19.4,1720.59,28,25.61
777.4,0.0,777.4,349.83,10.8,1904.59,28,31.44
775.0,0.0,775.0,348.75,11.1,1898.67,28,32.04
789.3,0.0,789.3,355.19,9.5,1933.63,28,31.46
772.5,0.0,772.5,347.63,11.4,1892.74,28,32.16
753.2,0.0,753.2,338.94,13.6,1845.33,28,31.71
760.7,0.0,760.7,342.32,12.7,1863.7,28,37.83
784.0,0.0,392.0,352.8,24.7,1528.89,28,15.54
782.0,0.0,391.0,351.9,24.9,1525.04,28,15.24
779.0,0.0,389.5,350.55,25.2,1519.11,28,15.75
757.0,0.0,378.5,340.65,27.3,1476.15,28,16.05
760.65,0.0,380.33,342.29,27.0,1483.26,28,15.71
748.8,0.0,374.4,336.96,28.1,1460.15,28,16.16
900.0,0.0,450.0,405.0,13.6,1748.0,28,30.59
902.0,0.0,451.0,405.9,13.4,1759.11,28,30.4
908.3,0.0,454.15,408.74,12.8,1771.26,28,30.19
883.9,0.0,441.95,397.76,15.2,1723.56,28,32.6
884.6,0.0,442.3,398.07,15.1,1725.04,28,25.76
892.0,0.0,446.0,401.4,14.4,1739.26,28,26.61
987.7,0.0,493.85,444.47,5.2,1925.93,28,37.2
992.8,0.0,496.4,446.76,4.7,1936.0,28,36.96
979.8,0.0,489.9,440.91,6.0,1910.52,28,37.34
982.2,0.0,491.1,441.99,5.7,1915.26,28,34.63
958.5,0.0,479.25,431.33,8.0,1869.04,28,35.48
985.2,0.0,492.6,443.34,5.4,1921.19,28,36.24
447.6,0.0,895.2,201.42,31.9,1544.3,28,11.75
450.37,0.0,900.74,202.6665,31.5,1553.78,28,11.96
449.9,0.0,899.8,202.455,31.5,1552.0,28,10.45
439.2,0.0,878.4,197.64,33.2,1515.26,28,12.51
441.7,0.0,883.4,198.765,32.8,1523.85,28,13.19
440.32,0.0,880.64,198.144,33.0,1519.11,28,11.48
488.9,0.0,977.8,220.005,25.6,1686.52,28,13.85
485.0,0.0,970.0,218.25,26.2,1673.48,28,13.33
485.8,0.0,971.6,218.61,26.1,1675.85,28,14.27
476.4,0.0,952.8,214.38,27.5,1643.56,28,13.18
480.4,0.0,960.8,216.18,26.9,1657.48,28,13.84
479.0,0.0,958.0,215.55,27.1,1652.74,28,12.65
546.6,0.0,1093.2,245.97,16.8,1885.63,28,33.99
545.9,0.0,1091.8,245.655,16.9,1883.26,28,30.43
549.0,0.0,1098.0,247.05,16.5,1893.93,28,34.66
540.5,0.0,1081.0,243.225,17.7,1864.89,28,30.28
548.3,0.0,1096.6,246.735,16.6,1891.56,28,31.7
539.5,0.0,1079.0,242.775,17.9,1861.33,28,28.11
837.3,0.0,837.3,334.92,8.1,2009.48,28,43.54
833.8,0.0,833.8,333.52,8.5,2001.19,28,43.79
831.9,0.0,831.9,332.76,8.7,1996.44,28,43.2
826.0,0.0,826.0,330.4,9.4,1982.22,28,39.87
821.7,0.0,821.7,328.68,9.8,1972.15,28,41.23
818.0,0.0,818.0,327.2,10.3,1963.26,28,40.96
728.0,0.0,728.0,291.2,20.1,1747.26,28,27.96
724.7,0.0,724.7,289.88,20.5,1739.26,28,28.12
724.3,0.0,724.3,289.72,20.5,1738.37,28,25.89
726.0,0.0,726.0,290.4,20.4,1742.22,28,27.34
721.23,0.0,721.23,288.492,20.9,1730.96,28,28.96
724.0,0.0,724.0,289.6,20.6,1737.48,28,28.27
596.54,0.0,596.54,238.616,34.6,1431.7,28,11.08
596.9,0.0,596.9,238.76,34.5,1432.59,28,10.74
598.8,0.0,598.8,239.52,34.3,1437.04,28,10.91
586.2,0.0,586.2,234.48,35.7,1406.81,28,9.2
590.9,0.0,590.9,236.36,35.2,1418.07,28,10.35
588.15,0.0,588.15,235.26,35.5,1411.56,28,9.33
816.13,0.0,816.13,285.645,14.4,1919.7,28,43.53
829.5,0.0,829.5,290.325,13.0,1951.11,28,44.61
820.0,0.0,820.0,287.0,14.0,1928.89,28,45.01
810.2,0.0,810.2,283.57,15.0,1905.78,28,43.21
817.8,0.0,817.8,286.23,14.2,1923.56,28,42.11
819.15,0.0,819.15,286.7025,14.1,1926.81,28,44.38
747.6,0.0,747.6,261.66,21.6,1758.52,28,39.51
755.5,0.0,755.5,264.425,20.7,1777.19,28,41.94
757.8,0.0,757.8,265.23,20.5,1782.52,28,39.68
748.2,0.0,748.2,261.87,21.5,1760.0,28,36.1
742.8,0.0,742.8,259.98,22.1,1747.26,28,35.6
742.3,0.0,742.3,259.805,22.1,1746.07,28,34.86
678.6,0.0,678.6,237.51,28.8,1596.15,28,20.63
683.5,0.0,683.5,239.225,28.3,1607.7,28,23.86
688.8,0.0,688.8,241.08,27.7,1620.15,28,22.01
673.4,0.0,673.4,235.69,29.4,1584.0,28,21.1
675.0,0.0,675.0,236.25,29.2,1587.85,28,21.87
675.6,0.0,675.6,236.46,29.1,1589.04,28,23.36
861.4,0.0,861.4,258.42,13.9,1984.0,28,48.5
858.8,0.0,858.8,257.64,14.1,1978.07,28,47.31
857.26,0.0,857.26,257.178,14.3,1974.52,28,48.88
851.1,0.0,851.1,255.33,14.9,1960.3,28,47.53
853.4,0.0,853.4,256.02,14.7,1965.63,28,48.48
851.9,0.0,851.9,255.57,14.8,1962.07,28,48.39
763.9,0.0,763.9,229.17,23.6,1759.41,28,40.21
785.7,0.0,785.7,235.71,21.4,1809.78,28,41.0
773.6,0.0,773.6,232.08,22.6,1781.93,28,40.79
770.6,0.0,770.6,231.18,22.9,1774.81,28,38.32
767.2,0.0,767.2,230.16,23.3,1767.11,28,38.86
775.4,0.0,775.4,232.62,22.4,1786.07,28,37.59
692.6,0.0,692.6,207.78,30.7,1595.26,28,25.36
698.3,0.0,698.3,209.49,30.2,1608.3,28,26.11
705.2,0.0,705.2,211.56,29.5,1624.3,28,26.47
689.3,0.0,689.3,206.79,31.1,1587.56,28,24.7
690.5,0.0,690.5,207.15,30.9,1590.52,28,24.56
684.9,0.0,684.9,205.47,31.5,1577.48,28,23.29
850.0,0.0,850.0,297.5,10.7,2000.59,28,41.23
852.0,0.0,852.0,298.2,10.4,2005.93,28,40.69
852.24,0.0,852.24,298.284,10.4,2006.52,28,38.87
844.0,0.0,844.0,295.4,11.3,1986.96,28,40.91
841.4,0.0,841.4,294.49,11.6,1981.04,28,39.77
836.6,0.0,836.6,292.81,12.1,1969.78,28,40.49
770.6,0.0,770.6,269.71,19.0,1814.22,28,30.12
759.5,0.0,759.5,265.825,20.2,1788.15,28,33.3
776.0,0.0,776.0,271.6,18.4,1828.15,28,33.83
758.5,0.0,758.5,265.475,20.3,1785.78,28,29.25
767.2,0.0,767.2,268.52,19.4,1806.22,28,30.88
758.2,0.0,758.2,265.37,20.3,1785.19,28,31.92
702.9,0.0,702.9,246.015,26.1,1654.81,28,22.86
701.0,0.0,701.0,245.35,26.3,1650.37,28,23.23
704.25,0.0,704.25,246.487,26.0,1658.07,28,24.73
693.7,0.0,693.7,242.795,27.1,1633.19,28,21.77
691.16,0.0,691.16,241.906,27.4,1627.26,28,21.56
693.0,0.0,693.0,242.55,27.2,1631.7,28,21.68
829.1,0.0,829.1,290.185,12.9,1952.0,28,39.22
831.1,0.0,831.1,290.885,12.6,1956.74,28,42.6
827.3,0.0,827.3,289.555,13.0,1947.85,28,41.92
818.5,0.0,818.5,286.475,14.0,1927.11,28,39.37
817.3,0.0,817.3,286.055,14.1,1924.15,28,38.97
826.3,0.0,826.3,289.205,13.1,1945.48,28,39.95
778.8,0.0,778.8,272.58,18.1,1833.48,28,36.85
753.3,0.0,753.3,263.655,20.8,1773.63,28,37.34
752.3,0.0,752.3,263.305,20.9,1771.26,28,36.23
765.7,0.0,765.7,267.995,19.5,1802.67,28,35.13
748.3,0.0,748.3,261.905,21.3,1761.78,28,35.15
750.9,0.0,750.9,262.815,21.1,1768.0,28,36.35
677.6,0.0,677.6,237.16,28.8,1595.26,28,26.8
678.0,0.0,678.0,237.3,28.7,1596.44,28,27.44
666.7,0.0,666.7,233.345,29.9,1569.48,28,26.3
666.0,0.0,666.0,233.1,30.0,1568.3,28,24.65
661.0,0.0,661.0,231.35,30.5,1556.15,28,26.62
660.3,0.0,660.3,231.105,30.6,1554.67,28,25.46
630.4,0.0,630.4,252.16,30.5,1516.34,28,3.23
737.2,0.0,737.2,294.88,18.8,1773.27,28,5.14
799.0,0.0,799.0,319.6,11.9,1921.82,28,6.14
624.9,0.0,624.9,249.96,31.1,1503.15,28,3.67
732.3,0.0,732.3,292.92,19.3,1761.53,28,4.92
793.8,0.0,793.8,317.52,12.5,1909.38,28,5.88
390.0,0.0,676.0,234.0,22.12,1300.0,3,0.95
390.0,0.0,637.0,273.0,20.75,1300.0,3,2.09
390.0,0.0,617.0,293.0,20.0,1300.0,3,2.2
390.0,0.0,676.0,234.0,22.12,1300.0,7,1.36
390.0,0.0,637.0,273.0,20.75,1300.0,7,3.15
390.0,0.0,617.0,293.0,20.0,1300.0,7,4.07
390.0,0.0,676.0,234.0,22.12,1300.0,28,1.79
390.0,0.0,637.0,273.0,20.75,1300.0,28,4.45
390.0,0.0,617.0,293.0,20.0,1300.0,28,5.06
390.0,0.0,676.0,234.0,22.12,1300.0,180,2.43
390.0,0.0,637.0,273.0,20.75,1300.0,180,4.8
390.0,0.0,617.0,312.0,20.0,1300.0,180,5.74
390.0,0.0,976.0,234.0,15.68,1600.0,3,2.06
390.0,0.0,937.0,273.0,14.31,1600.0,3,3.6
390.0,0.0,898.0,312.0,12.88,1600.0,3,4.55
390.0,0.0,976.0,234.0,15.68,1600.0,7,2.75
390.0,0.0,937.0,273.0,14.31,1600.0,7,5.5
390.0,0.0,898.0,312.0,12.88,1600.0,7,7.2
390.0,0.0,976.0,234.0,15.68,1600.0,28,4.35
390.0,0.0,937.0,273.0,14.31,1600.0,28,7.7
390.0,0.0,898.0,312.0,12.88,1600.0,28,8.9
390.0,0.0,976.0,234.0,15.68,1600.0,180,4.8
390.0,0.0,937.0,273.0,14.31,1600.0,180,8.75
390.0,0.0,898.0,312.0,12.88,1600.0,180,10.6
390.0,0.0,1276.0,234.0,9.23,1900.0,3,7.5
390.0,0.0,1237.0,273.0,7.87,1900.0,3,7.3
390.0,0.0,1198.0,312.0,6.5,1900.0,3,8.6
390.0,0.0,1276.0,234.0,9.23,1900.0,7,10.8
390.0,0.0,1237.0,273.0,7.87,1900.0,7,10.75
390.0,0.0,1198.0,312.0,6.5,1900.0,7,13.25
390.0,0.0,1276.0,234.0,9.23,1900.0,28,12.75
390.0,0.0,1237.0,273.0,7.87,1900.0,28,13.5
390.0,0.0,1198.0,312.0,6.5,1900.0,28,16.7
390.0,0.0,1276.0,234.0,9.23,1900.0,180,14.15
390.0,0.0,1237.0,273.0,7.87,1900.0,180,14.7
390.0,0.0,1198.0,312.0,6.5,1900.0,180,17.9
400.0,0.0,920.0,280.0,14.82,1600.0,7,7.8
400.0,0.0,720.0,280.0,19.95,1400.0,7,4.9
400.0,0.0,520.0,280.0,24.5,1200.0,7,3.8
400.0,0.0,320.0,280.0,29.07,1000.0,7,2.4
400.0,0.0,120.0,280.0,33.63,850.0,7,2.0
350.0,0.0,0.0,250.0,39.33,620.0,7,1.1
400.0,0.0,920.0,280.0,14.82,1600.0,14,8.7
400.0,0.0,720.0,280.0,19.95,1400.0,14,5.5
400.0,0.0,520.0,280.0,24.5,1200.0,14,4.2
400.0,0.0,320.0,280.0,29.07,1000.0,14,2.8
400.0,0.0,120.0,280.0,33.63,850.0,14,2.2
350.0,0.0,0.0,250.0,39.33,620.0,14,1.5
400.0,0.0,920.0,280.0,14.82,1600.0,28,9.9
400.0,0.0,720.0,280.0,19.95,1400.0,28,6.4
400.0,0.0,520.0,280.0,24.5,1200.0,28,5.2
400.0,0.0,320.0,280.0,29.07,1000.0,28,3.1
400.0,0.0,120.0,280.0,33.63,850.0,28,2.3
350.0,0.0,0.0,250.0,39.33,620.0,28,1.5
460.0,226.1,684.0,212.0,17.67,1610.0,7,19.3
650.0,320.8,0.0,291.0,21.09,1280.0,7,13.2
290.0,141.0,427.0,132.0,30.78,1050.0,7,2.6
390.0,191.9,0.0,174.0,35.91,820.0,7,4.5
460.0,226.1,684.0,212.0,17.67,1610.0,14,20.4
650.0,320.8,0.0,291.0,21.09,1280.0,14,15.7
290.0,141.0,427.0,132.0,30.78,1050.0,14,3.6
390.0,191.9,0.0,174.0,35.91,820.0,14,5.5
460.0,226.1,684.0,212.0,17.67,1610.0,28,23.7
650.0,320.8,0.0,291.0,21.09,1280.0,28,17.0
290.0,141.0,427.0,132.0,30.78,1050.0,28,4.2
390.0,191.9,0.0,174.0,35.91,820.0,28,6.6
461.0,71.0,355.0,196.0,29.07,1080.0,7,24.6
685.0,105.0,527.0,300.0,15.39,1620.0,7,28.8
461.0,71.0,355.0,196.0,29.07,1080.0,14,25.3
685.0,105.0,527.0,300.0,15.39,1620.0,14,37.5
461.0,71.0,355.0,196.0,29.07,1080.0,28,34.2
685.0,105.0,527.0,300.0,15.39,1620.0,28,44.1
475.8,0.0,713.7,214.1,21.9,1426.0,7,4.09
475.8,71.4,713.7,214.1,21.9,1431.0,7,4.53
475.8,142.7,713.7,214.1,21.9,1435.0,7,4.72
475.8,214.1,713.7,214.1,21.9,1437.0,7,3.97
475.8,285.5,713.7,214.1,21.9,1448.0,7,3.38
475.8,356.9,713.7,214.1,21.9,1453.0,7,2.97
475.8,0.0,713.7,214.1,21.9,1426.0,14,5.06
475.8,71.4,713.7,214.1,21.9,1431.0,14,5.57
475.8,142.7,713.7,214.1,21.9,1435.0,14,5.84
475.8,214.1,713.7,214.1,21.9,1437.0,14,4.82
475.8,285.5,713.7,214.1,21.9,1448.0,14,4.14
475.8,356.9,713.7,214.1,21.9,1453.0,14,3.85
475.8,0.0,713.7,214.1,21.9,1426.0,28,6.13
475.8,71.4,713.7,214.1,21.9,1431.0,28,6.98
475.8,142.7,713.7,214.1,21.9,1435.0,28,7.3
475.8,214.1,713.7,214.1,21.9,1437.0,28,5.96
475.8,285.5,713.7,214.1,21.9,1448.0,28,5.35
475.8,356.9,713.7,214.1,21.9,1453.0,28,4.74
475.8,0.0,713.7,214.1,21.9,1426.0,56,6.45
475.8,71.4,713.7,214.1,21.9,1431.0,56,7.27
475.8,142.7,713.7,214.1,21.9,1435.0,56,7.86
475.8,214.1,713.7,214.1,21.9,1437.0,56,6.26
475.8,285.5,713.7,214.1,21.9,1448.0,56,5.57
475.8,356.9,713.7,214.1,21.9,1453.0,56,5.0
475.8,0.0,713.7,214.1,21.9,1426.0,180,6.7
475.8,71.4,713.7,214.1,21.9,1431.0,180,7.54
475.8,142.7,713.7,214.1,21.9,1435.0,180,8.2
475.8,214.1,713.7,214.1,21.9,1437.0,180,6.6
475.8,285.5,713.7,214.1,21.9,1448.0,180,5.84
475.8,356.9,713.7,214.1,21.9,1453.0,180,5.35
492.7,0.0,739.1,246.4,19.72,1350.0,7,6.31
468.1,24.6,739.1,246.4,19.72,1350.0,7,6.42
443.4,49.3,739.1,246.4,19.72,1350.0,7,6.67
418.8,73.9,739.1,246.4,19.72,1350.0,7,7.06
394.2,98.5,739.1,246.4,19.72,1350.0,7,6.42
369.5,123.2,739.1,246.4,19.72,1350.0,7,4.86
492.7,0.0,739.1,246.4,19.72,1350.0,14,8.8
468.1,24.6,739.1,246.4,19.72,1350.0,14,9.05
443.4,49.3,739.1,246.4,19.72,1350.0,14,9.08
418.8,73.9,739.1,246.4,19.72,1350.0,14,9.55
394.2,98.5,739.1,246.4,19.72,1350.0,14,8.62
369.5,123.2,739.1,246.4,19.72,1350.0,14,6.5
492.7,0.0,739.1,246.4,19.72,1350.0,28,10.43
468.1,24.6,739.1,246.4,19.72,1350.0,28,10.65
443.4,49.3,739.1,246.4,19.72,1350.0,28,10.82
418.8,73.9,739.1,246.4,19.72,1350.0,28,11.3
394.2,98.5,739.1,246.4,19.72,1350.0,28,10.26
369.5,123.2,739.1,246.4,19.72,1350.0,28,8.91
639.0,0.0,958.5,306.7,7.21,1750.0,7,9.14
607.1,32.0,958.5,306.7,7.21,1750.0,7,9.26
575.1,639.0,958.5,306.7,7.21,1750.0,7,9.45
543.2,95.9,958.5,306.7,7.21,1750.0,7,9.79
511.2,127.8,958.5,306.7,7.21,1750.0,7,9.01
479.3,159.8,958.5,306.7,7.21,1750.0,7,8.23
447.3,191.7,958.5,306.7,7.21,1750.0,7,7.32
607.1,32.0,958.5,306.7,7.21,1750.0,7,9.07
575.1,639.0,958.5,306.7,7.21,1750.0,7,9.14
543.2,95.9,958.5,306.7,7.21,1750.0,7,9.42
511.2,127.8,958.5,306.7,7.21,1750.0,7,8.85
479.3,159.8,958.5,306.7,7.21,1750.0,7,7.95
447.3,191.7,958.5,306.7,7.21,1750.0,7,6.88
607.1,32.0,958.5,306.7,7.21,1750.0,7,9.48
575.1,639.0,958.5,306.7,7.21,1750.0,7,10.1
543.2,95.9,958.5,306.7,7.21,1750.0,7,10.29
511.2,127.8,958.5,306.7,7.21,1750.0,7,9.38
479.3,159.8,958.5,306.7,7.21,1750.0,7,8.28
447.3,191.7,958.5,306.7,7.21,1750.0,7,7.54
639.0,0.0,958.5,306.7,7.21,1750.0,14,12.12
607.1,32.0,958.5,306.7,7.21,1750.0,14,12.41
575.1,639.0,958.5,306.7,7.21,1750.0,14,12.73
543.2,95.9,958.5,306.7,7.21,1750.0,14,13.13
511.2,127.8,958.5,306.7,7.21,1750.0,14,12.16
479.3,159.8,958.5,306.7,7.21,1750.0,14,10.96
447.3,191.7,958.5,306.7,7.21,1750.0,14,9.87
607.1,32.0,958.5,306.7,7.21,1750.0,14,12.32
575.1,639.0,958.5,306.7,7.21,1750.0,14,12.45
543.2,95.9,958.5,306.7,7.21,1750.0,14,12.61
511.2,127.8,958.5,306.7,7.21,1750.0,14,11.92
479.3,159.8,958.5,306.7,7.21,1750.0,14,10.6
447.3,191.7,958.5,306.7,7.21,1750.0,14,9.47
607.1,32.0,958.5,306.7,7.21,1750.0,14,12.85
575.1,639.0,958.5,306.7,7.21,1750.0,14,13.57
543.2,95.9,958.5,306.7,7.21,1750.0,14,13.85
511.2,127.8,958.5,306.7,7.21,1750.0,14,12.65
479.3,159.8,958.5,306.7,7.21,1750.0,14,11.12
447.3,191.7,958.5,306.7,7.21,1750.0,14,10.2
639.0,0.0,958.5,306.7,7.21,1750.0,28,14.5
607.1,32.0,958.5,306.7,7.21,1750.0,28,14.7
575.1,639.0,958.5,306.7,7.21,1750.0,28,14.95
543.2,95.9,958.5,306.7,7.21,1750.0,28,15.4
511.2,127.8,958.5,306.7,7.21,1750.0,28,14.1
479.3,159.8,958.5,306.7,7.21,1750.0,28,13.05
447.3,191.7,958.5,306.7,7.21,1750.0,28,11.65
607.1,32.0,958.5,306.7,7.21,1750.0,28,14.5
575.1,639.0,958.5,306.7,7.21,1750.0,28,14.65
543.2,95.9,958.5,306.7,7.21,1750.0,28,14.9
511.2,127.8,958.5,306.7,7.21,1750.0,28,14.0
479.3,159.8,958.5,306.7,7.21,1750.0,28,12.55
447.3,191.7,958.5,306.7,7.21,1750.0,28,11.1
607.1,32.0,958.5,306.7,7.21,1750.0,28,15.15
575.1,639.0,958.5,306.7,7.21,1750.0,28,15.85
543.2,95.9,958.5,306.7,7.21,1750.0,28,16.2
511.2,127.8,958.5,306.7,7.21,1750.0,28,14.9
479.3,159.8,958.5,306.7,7.21,1750.0,28,13.1
447.3,191.7,958.5,306.7,7.21,1750.0,28,11.9
284.4,0.0,426.6,128.0,38.5,751.0,7,1.77
293.2,0.0,426.6,128.0,38.5,754.0,7,1.98
301.9,0.0,426.6,128.0,38.5,756.0,7,2.22
310.7,0.0,426.6,128.0,38.5,758.0,7,2.32
319.5,0.0,426.6,128.0,38.5,761.0,7,2.9
328.3,0.0,426.6,128.0,38.5,762.0,7,2.02
337.1,0.0,426.6,128.0,38.5,764.0,7,1.82
284.4,0.0,426.6,128.0,38.5,751.0,28,2.03
293.2,0.0,426.6,128.0,38.5,754.0,28,2.29
301.9,0.0,426.6,128.0,38.5,756.0,28,2.57
310.7,0.0,426.6,128.0,38.5,758.0,28,2.69
319.5,0.0,426.6,128.0,38.5,761.0,28,3.36
328.3,0.0,426.6,128.0,38.5,762.0,28,2.33
337.1,0.0,426.6,128.0,38.5,764.0,28,2.1
284.4,0.0,426.6,128.0,38.5,751.0,56,2.3
293.2,0.0,426.6,128.0,38.5,754.0,56,2.59
301.9,0.0,426.6,128.0,38.5,756.0,56,2.9
310.7,0.0,426.6,128.0,38.5,758.0,56,3.02
319.5,0.0,426.6,128.0,38.5,761.0,56,3.8
328.3,0.0,426.6,128.0,38.5,762.0,56,2.63
337.1,0.0,426.6,128.0,38.5,764.0,56,2.37
375.0,0.0,562.0,169.0,31.0,1000.0,7,3.3
386.4,11.4,562.0,169.0,31.0,1000.0,7,4.42
397.7,22.7,562.0,169.0,31.0,1000.0,7,4.75
409.1,34.1,562.0,169.0,31.0,1000.0,7,5.68
420.4,45.4,562.0,169.0,31.0,1000.0,7,4.45
483.0,0.0,725.0,217.0,21.0,1300.0,7,12.1
497.5,14.5,725.0,217.0,21.0,1300.0,7,12.91
511.9,28.9,725.0,217.0,21.0,1300.0,7,13.91
526.4,43.4,725.0,217.0,21.0,1300.0,7,14.79
540.8,57.8,725.0,217.0,21.0,1300.0,7,12.16
591.0,0.0,887.0,266.0,12.0,1600.0,7,7.21
608.6,17.6,887.0,266.0,12.0,1600.0,7,8.25
626.1,35.1,887.0,266.0,12.0,1600.0,7,9.58
643.7,52.7,887.0,266.0,12.0,1600.0,7,9.92
661.3,70.3,887.0,266.0,12.0,1600.0,7,8.3
375.0,0.0,562.0,169.0,31.0,1000.0,28,4.13
386.4,11.4,562.0,169.0,31.0,1000.0,28,5.53
397.7,22.7,562.0,169.0,31.0,1000.0,28,5.94
409.1,34.1,562.0,169.0,31.0,1000.0,28,7.1
420.4,45.4,562.0,169.0,31.0,1000.0,28,5.64
483.0,0.0,725.0,217.0,21.0,1300.0,28,15.13
497.5,14.5,725.0,217.0,21.0,1300.0,28,16.01
511.9,28.9,725.0,217.0,21.0,1300.0,28,17.39
526.4,43.4,725.0,217.0,21.0,1300.0,28,17.94
540.8,57.8,725.0,217.0,21.0,1300.0,28,15.2
591.0,0.0,887.0,266.0,12.0,1600.0,28,9.08
608.6,17.6,887.0,266.0,12.0,1600.0,28,10.02
626.1,35.1,887.0,266.0,12.0,1600.0,28,11.78
643.7,52.7,887.0,266.0,12.0,1600.0,28,12.62
661.3,70.3,887.0,266.0,12.0,1600.0,28,10.38
375.0,0.0,562.0,169.0,31.0,1000.0,56,4.62
386.4,11.4,562.0,169.0,31.0,1000.0,56,6.19
397.7,22.7,562.0,169.0,31.0,1000.0,56,6.65
409.1,34.1,562.0,169.0,31.0,1000.0,56,7.95
420.4,45.4,562.0,169.0,31.0,1000.0,56,6.35
483.0,0.0,725.0,217.0,21.0,1300.0,56,16.94
497.5,14.5,725.0,217.0,21.0,1300.0,56,17.93
511.9,28.9,725.0,217.0,21.0,1300.0,56,19.47
526.4,43.4,725.0,217.0,21.0,1300.0,56,20.71
540.8,57.8,725.0,217.0,21.0,1300.0,56,17.02
591.0,0.0,887.0,266.0,12.0,1600.0,56,10.09
608.6,17.6,887.0,266.0,12.0,1600.0,56,11.76
626.1,35.1,887.0,266.0,12.0,1600.0,56,13.18
643.7,52.7,887.0,266.0,12.0,1600.0,56,13.87
661.3,70.3,887.0,266.0,12.0,1600.0,56,11.62
194.1,0.0,291.2,87.4,46.3,500.0,7,0.76
194.1,3.1,291.1,87.4,46.3,500.0,7,0.92
194.1,6.2,291.2,87.4,46.3,500.0,7,1.08
194.1,9.3,291.1,87.4,46.3,500.0,7,1.25
194.1,12.4,291.2,87.4,46.3,500.0,7,1.21
194.1,15.5,291.1,87.4,46.3,500.0,7,0.72
266.3,0.0,399.5,119.9,40.0,700.0,7,1.67
266.3,4.1,399.5,119.9,40.0,700.0,7,2.28
266.3,8.3,399.5,119.9,40.0,700.0,7,2.4
266.3,12.4,399.5,119.9,40.0,700.0,7,2.84
266.3,16.5,399.5,119.9,40.0,700.0,7,2.63
266.3,20.6,399.5,119.9,40.0,700.0,7,1.98
338.6,0.0,507.9,152.4,33.8,900.0,7,2.38
338.6,5.2,507.9,152.4,33.8,900.0,7,3.24
338.6,10.3,507.9,152.4,33.8,900.0,7,3.48
338.6,15.5,507.9,152.4,33.8,900.0,7,4.08
338.6,20.7,507.9,152.4,33.8,900.0,7,4.3
338.6,25.8,507.9,152.4,33.8,900.0,7,2.98
194.1,0.0,291.2,87.4,46.3,500.0,28,0.92
194.1,3.1,291.1,87.4,46.3,500.0,28,1.16
194.1,6.2,291.2,87.4,46.3,500.0,28,1.34
194.1,9.3,291.1,87.4,46.3,500.0,28,1.55
194.1,12.4,291.2,87.4,46.3,500.0,28,1.51
194.1,15.5,291.1,87.4,46.3,500.0,28,0.91
266.3,0.0,399.5,119.9,40.0,700.0,28,2.08
266.3,4.1,399.5,119.9,40.0,700.0,28,2.85
266.3,8.3,399.5,119.9,40.0,700.0,28,2.97
266.3,12.4,399.5,119.9,40.0,700.0,28,3.54
266.3,16.5,399.5,119.9,40.0,700.0,28,3.31
266.3,20.6,399.5,119.9,40.0,700.0,28,2.47
338.6,0.0,507.9,152.4,33.8,900.0,28,2.96
338.6,5.2,507.9,152.4,33.8,900.0,28,4.02
338.6,10.3,507.9,152.4,33.8,900.0,28,4.32
338.6,15.5,507.9,152.4,33.8,900.0,28,5.13
338.6,20.7,507.9,152.4,33.8,900.0,28,5.35
338.6,25.8,507.9,152.4,33.8,900.0,28,3.8
194.1,0.0,291.2,87.4,46.3,500.0,56,1.04
194.1,3.1,291.1,87.4,46.3,500.0,56,1.29
194.1,6.2,291.2,87.4,46.3,500.0,56,1.51
194.1,9.3,291.1,87.4,46.3,500.0,56,1.74
194.1,12.4,291.2,87.4,46.3,500.0,56,1.69
194.1,15.5,291.1,87.4,46.3,500.0,56,1.01
266.3,0.0,399.5,119.9,40.0,700.0,56,2.32
266.3,4.1,399.5,119.9,40.0,700.0,56,3.19
266.3,8.3,399.5,119.9,40.0,700.0,56,3.34
266.3,12.4,399.5,119.9,40.0,700.0,56,3.92
266.3,16.5,399.5,119.9,40.0,700.0,56,3.69
266.3,20.6,399.5,119.9,40.0,700.0,56,2.76
338.6,0.0,507.9,152.4,33.8,900.0,56,3.32
338.6,5.2,507.9,152.4,33.8,900.0,56,4.51
338.6,10.3,507.9,152.4,33.8,900.0,56,4.81
338.6,15.5,507.9,152.4,33.8,900.0,56,5.78
338.6,20.7,507.9,152.4,33.8,900.0,56,6.02
338.6,25.8,507.9,152.4,33.8,900.0,56,4.19
230.2,0.0,345.4,103.6,43.2,600.0,7,0.99
230.2,7.2,345.4,103.6,43.2,600.0,7,1.23
230.2,14.4,345.4,103.6,43.2,600.0,7,1.43
230.2,21.7,345.4,103.6,43.2,600.0,7,1.62
230.2,28.9,345.4,103.6,43.2,600.0,7,1.48
446.9,0.0,670.4,201.1,24.4,1200.0,7,3.14
446.9,13.4,670.4,201.1,24.4,1200.0,7,4.19
446.9,26.9,670.4,201.1,24.4,1200.0,7,4.49
446.9,40.3,670.4,201.1,24.4,1200.0,7,5.38
446.9,53.7,670.4,201.1,24.4,1200.0,7,4.57
230.2,0.0,345.4,103.6,43.2,600.0,28,1.24
230.2,7.2,345.4,103.6,43.2,600.0,28,1.52
230.2,14.4,345.4,103.6,43.2,600.0,28,1.77
230.2,21.7,345.4,103.6,43.2,600.0,28,2.01
230.2,28.9,345.4,103.6,43.2,600.0,28,1.88
446.9,0.0,670.4,201.1,24.4,1200.0,28,3.87
446.9,13.4,670.4,201.1,24.4,1200.0,28,5.16
446.9,26.9,670.4,201.1,24.4,1200.0,28,5.6
446.9,40.3,670.4,201.1,24.4,1200.0,28,6.7
446.9,53.7,670.4,201.1,24.4,1200.0,28,5.68
230.2,0.0,345.4,103.6,43.2,600.0,56,1.38
230.2,7.2,345.4,103.6,43.2,600.0,56,1.69
230.2,14.4,345.4,103.6,43.2,600.0,56,1.97
230.2,21.7,345.4,103.6,43.2,600.0,56,2.25
230.2,28.9,345.4,103.6,43.2,600.0,56,2.11
446.9,0.0,670.4,201.1,24.4,1200.0,56,4.41
446.9,13.4,670.4,201.1,24.4,1200.0,56,5.87
446.9,26.9,670.4,201.1,24.4,1200.0,56,6.22
446.9,40.3,670.4,201.1,24.4,1200.0,56,7.49
446.9,53.7,670.4,201.1,24.4,1200.0,56,6.38
284.4,0.0,426.6,128.0,38.5,751.0,7,1.77
284.4,8.8,426.6,128.0,38.5,754.0,7,1.98
284.4,17.5,426.6,128.0,38.5,756.0,7,2.22
284.4,26.3,426.6,128.0,38.5,758.0,7,2.32
284.4,35.1,426.6,128.0,38.5,761.0,7,2.9
284.4,43.9,426.6,128.0,38.5,762.0,7,2.02
284.4,52.7,426.6,128.0,38.5,764.0,7,1.82
284.4,0.0,426.6,128.0,38.5,755.0,28,2.03
284.4,8.8,426.6,128.0,38.5,758.0,28,2.29
284.4,17.5,426.6,128.0,38.5,759.0,28,2.57
284.4,26.3,426.6,128.0,38.5,761.0,28,2.69
284.4,35.1,426.6,128.0,38.5,763.0,28,3.36
284.4,43.9,426.6,128.0,38.5,766.0,28,2.33
284.4,52.7,426.6,128.0,38.5,770.0,28,2.1
284.4,0.0,426.6,128.0,38.5,759.0,56,2.3
284.4,8.8,426.6,128.0,38.5,762.0,56,2.59
284.4,17.5,426.6,128.0,38.5,764.0,56,2.9
284.4,26.3,426.6,128.0,38.5,766.0,56,3.02
284.4,35.1,426.6,128.0,38.5,767.0,56,3.8
284.4,43.9,426.6,128.0,38.5,768.0,56,2.63
284.4,52.7,426.6,128.0,38.5,772.0,56,2.37
465.0,0.0,697.4,209.2,22.8,1250.0,7,2.58
418.5,46.5,697.4,209.2,22.8,1250.0,7,3.44
372.0,93.0,697.4,209.2,22.8,1250.0,7,3.81
325.5,139.5,697.4,209.2,22.8,1250.0,7,4.12
279.0,186.0,697.4,209.2,22.8,1250.0,7,5.23
232.5,232.5,697.4,209.2,22.8,1250.0,7,3.52
186.0,279.0,697.4,209.2,22.8,1250.0,7,2.21
418.5,46.5,697.4,209.2,22.8,1250.0,7,2.65
372.0,93.0,697.4,209.2,22.8,1250.0,7,3.24
325.5,139.5,697.4,209.2,22.8,1250.0,7,3.65
279.0,186.0,697.4,209.2,22.8,1250.0,7,2.45
232.5,232.5,697.4,209.2,22.8,1250.0,7,1.78
186.0,279.0,697.4,209.2,22.8,1250.0,7,1.32
418.5,46.5,697.4,209.2,22.8,1250.0,7,3.19
372.0,93.0,697.4,209.2,22.8,1250.0,7,4.21
325.5,139.5,697.4,209.2,22.8,1250.0,7,3.12
279.0,186.0,697.4,209.2,22.8,1250.0,7,2.71
232.5,232.5,697.4,209.2,22.8,1250.0,7,2.21
186.0,279.0,697.4,209.2,22.8,1250.0,7,0.76
418.5,46.5,697.4,209.2,22.8,1250.0,7,2.87
372.0,93.0,697.4,209.2,22.8,1250.0,7,3.56
325.5,139.5,697.4,209.2,22.8,1250.0,7,4.61
279.0,186.0,697.4,209.2,22.8,1250.0,7,3.53
232.5,232.5,697.4,209.2,22.8,1250.0,7,2.78
186.0,279.0,697.4,209.2,22.8,1250.0,7,2.51
465.0,0.0,697.4,209.2,22.8,1250.0,14,3.148
418.5,46.5,697.4,209.2,22.8,1250.0,14,4.093
372.0,93.0,697.4,209.2,22.8,1250.0,14,4.608
325.5,139.5,697.4,209.2,22.8,1250.0,14,5.056
279.0,186.0,697.4,209.2,22.8,1250.0,14,6.452
232.5,232.5,697.4,209.2,22.8,1250.0,14,4.735
186.0,279.0,697.4,209.2,22.8,1250.0,14,3.222
418.5,46.5,697.4,209.2,22.8,1250.0,14,3.213
372.0,93.0,697.4,209.2,22.8,1250.0,14,3.964
325.5,139.5,697.4,209.2,22.8,1250.0,14,4.492
279.0,186.0,697.4,209.2,22.8,1250.0,14,3.023
232.5,232.5,697.4,209.2,22.8,1250.0,14,2.163
186.0,279.0,697.4,209.2,22.8,1250.0,14,1.832
418.5,46.5,697.4,209.2,22.8,1250.0,14,3.884
372.0,93.0,697.4,209.2,22.8,1250.0,14,5.146
325.5,139.5,697.4,209.2,22.8,1250.0,14,3.799
279.0,186.0,697.4,209.2,22.8,1250.0,14,3.312
232.5,232.5,697.4,209.2,22.8,1250.0,14,2.702
186.0,279.0,697.4,209.2,22.8,1250.0,14,0.957
418.5,46.5,697.4,209.2,22.8,1250.0,14,3.5
372.0,93.0,697.4,209.2,22.8,1250.0,14,4.334
325.5,139.5,697.4,209.2,22.8,1250.0,14,5.634
279.0,186.0,697.4,209.2,22.8,1250.0,14,4.387
232.5,232.5,697.4,209.2,22.8,1250.0,14,3.405
186.0,279.0,697.4,209.2,22.8,1250.0,14,2.787
465.0,0.0,697.4,209.2,22.8,1250.0,28,3.56
418.5,46.5,697.4,209.2,22.8,1250.0,28,4.747
372.0,93.0,697.4,209.2,22.8,1250.0,28,5.258
325.5,139.5,697.4,209.2,22.8,1250.0,28,5.686
279.0,186.0,697.4,209.2,22.8,1250.0,28,7.017
232.5,232.5,697.4,209.2,22.8,1250.0,28,5.099
186.0,279.0,697.4,209.2,22.8,1250.0,28,3.021
418.5,46.5,697.4,209.2,22.8,1250.0,28,3.657
372.0,93.0,697.4,209.2,22.8,1250.0,28,4.471
325.5,139.5,697.4,209.2,22.8,1250.0,28,5.037
279.0,186.0,697.4,209.2,22.8,1250.0,28,3.381
232.5,232.5,697.4,209.2,22.8,1250.0,28,2.456
186.0,279.0,697.4,209.2,22.8,1250.0,28,1.822
418.5,46.5,697.4,209.2,22.8,1250.0,28,4.402
372.0,93.0,697.4,209.2,22.8,1250.0,28,5.81
325.5,139.5,697.4,209.2,22.8,1250.0,28,4.006
279.0,186.0,697.4,209.2,22.8,1250.0,28,3.74
232.5,232.5,697.4,209.2,22.8,1250.0,28,3.05
186.0,279.0,697.4,209.2,22.8,1250.0,28,1.249
418.5,46.5,697.4,209.2,22.8,1250.0,28,3.961
372.0,93.0,697.4,209.2,22.8,1250.0,28,4.913
325.5,139.5,697.4,209.2,22.8,1250.0,28,6.362
279.0,186.0,697.4,209.2,22.8,1250.0,28,4.871
232.5,232.5,697.4,209.2,22.8,1250.0,28,3.836
186.0,279.0,697.4,209.2,22.8,1250.0,28,3.464
312.5,12.5,104.2,238.2,9.3,605.0,28,2.7
312.5,12.5,104.2,240.0,9.3,603.0,28,2.69
312.5,12.5,104.2,241.8,9.3,602.0,28,2.67
312.5,12.5,104.2,243.6,9.3,598.0,28,2.57
312.5,12.5,104.2,245.4,9.3,594.0,28,2.42
194.1,0.0,291.2,87.4,46.3,500.0,28,1.21
194.1,0.62,291.2,87.4,46.3,500.0,28,1.36
194.1,1.24,291.2,87.4,46.3,500.0,28,1.51
194.1,1.86,291.2,87.4,46.3,500.0,28,1.76
194.1,2.48,291.2,87.4,46.3,500.0,28,1.61
194.1,3.09,291.2,87.4,46.3,500.0,28,1.26
338.6,0.0,507.9,152.4,33.8,900.0,28,3.15
338.6,1.03,507.9,152.4,33.8,900.0,28,3.5
338.6,2.07,507.9,152.4,33.8,900.0,28,3.85
338.6,3.1,507.9,152.4,33.8,900.0,28,4.48
338.6,4.13,507.9,152.4,33.8,900.0,28,4.75
338.6,5.16,507.9,152.4,33.8,900.0,28,3.45
483.0,0.0,724.5,217.4,21.3,1300.0,28,5.2
483.0,1.45,724.5,217.4,21.3,1300.0,28,5.62
483.0,2.89,724.5,217.4,21.3,1300.0,28,6.04
483.0,4.34,724.5,217.4,21.3,1300.0,28,6.87
483.0,5.78,724.5,217.4,21.3,1300.0,28,7.4
483.0,7.23,724.5,217.4,21.3,1300.0,28,5.79
357.0,0.0,535.0,161.0,32.0,950.0,7,2.75
357.0,21.7,535.0,161.0,32.0,950.0,7,2.79
357.0,43.4,535.0,161.0,32.0,950.0,7,3.61
357.0,65.1,535.0,161.0,32.0,950.0,7,4.35
357.0,86.7,535.0,161.0,32.0,950.0,7,2.5
357.0,0.0,535.0,161.0,32.0,950.0,28,3.17
357.0,21.7,535.0,161.0,32.0,950.0,28,3.28
357.0,43.4,535.0,161.0,32.0,950.0,28,4.1
357.0,65.1,535.0,161.0,32.0,950.0,28,4.86
357.0,86.7,535.0,161.0,32.0,950.0,28,3.0
357.0,0.0,535.0,161.0,32.0,950.0,56,3.57
357.0,21.7,535.0,161.0,32.0,950.0,56,3.71
357.0,43.4,535.0,161.0,32.0,950.0,56,4.6
357.0,65.1,535.0,161.0,32.0,950.0,56,5.38
357.0,86.7,535.0,161.0,32.0,950.0,56,3.45